#K-Path(1/A) Energy-Level(eV)
# NKPTS & NBANDS: 132   8
# Band-Index    1
   0.00000    -22.047355
   0.03127    -22.044454
   0.06254    -22.035710
   0.09382    -22.021143
   0.12509    -22.000736
   0.15636    -21.974518
   0.18763    -21.942502
   0.21890    -21.904650
   0.25017    -21.861004
   0.28145    -21.811548
   0.31272    -21.756298
   0.34399    -21.695264
   0.37526    -21.628489
   0.40653    -21.555947
   0.43781    -21.477633
   0.46908    -21.393591
   0.50035    -21.303824
   0.53162    -21.208367
   0.56289    -21.107228
   0.59416    -21.000424
   0.62544    -20.887986
   0.65671    -20.769938
   0.68798    -20.646323
   0.71925    -20.517135
   0.75052    -20.382425
   0.78179    -20.242244
   0.81307    -20.096658
   0.84434    -19.945636
   0.87561    -19.789284
   0.90688    -19.627647
   0.93815    -19.460808
   0.96943    -19.288830
   1.00070    -19.111834
   1.03197    -18.929921
   1.06324    -18.743240
   1.09451    -18.551981
   1.12578    -18.356332
   1.15706    -18.156631
   1.18833    -17.953238
   1.21960    -17.746738
   1.25087    -17.537944
   1.28214    -17.328180
   1.31342    -17.119368
   1.34469    -16.915058
   1.37596    -16.721626
   1.40723    -16.551252
   1.43850    -16.426294
   1.46977    -16.378644
   1.46977    -16.378644
   1.50120    -16.376056
   1.53263    -16.368370
   1.56406    -16.355507
   1.59549    -16.337531
   1.62692    -16.314413
   1.65835    -16.286145
   1.68978    -16.252751
   1.72120    -16.214217
   1.75263    -16.170557
   1.78406    -16.121766
   1.81549    -16.067867
   1.84692    -16.008845
   1.87835    -15.944713
   1.90978    -15.875485
   1.94120    -15.801171
   1.97263    -15.721747
   2.00406    -15.637260
   2.03549    -15.547690
   2.06692    -15.453053
   2.09835    -15.353368
   2.12978    -15.248664
   2.16121    -15.138950
   2.19263    -15.024225
   2.22406    -14.904502
   2.25549    -14.779811
   2.28692    -14.650193
   2.31835    -14.515635
   2.31835    -14.515635
   2.34921    -14.663944
   2.38006    -14.836036
   2.41092    -15.026246
   2.44178    -15.229615
   2.47264    -15.442078
   2.50349    -15.660579
   2.53435    -15.882725
   2.56521    -16.106755
   2.59606    -16.331266
   2.62692    -16.555233
   2.65778    -16.777815
   2.68864    -16.998345
   2.71949    -17.216333
   2.75035    -17.431328
   2.78121    -17.642960
   2.81206    -17.850991
   2.84292    -18.055131
   2.87378    -18.255162
   2.90464    -18.450961
   2.93549    -18.642318
   2.96635    -18.829135
   2.99721    -19.011282
   3.02807    -19.188636
   3.05892    -19.361132
   3.08978    -19.528674
   3.12064    -19.691186
   3.15149    -19.848595
   3.18235    -20.000860
   3.21321    -20.147915
   3.24407    -20.289667
   3.27492    -20.426167
   3.30578    -20.557336
   3.33664    -20.683090
   3.36750    -20.803479
   3.39835    -20.918431
   3.42921    -21.027900
   3.46007    -21.131898
   3.49092    -21.230388
   3.52178    -21.323351
   3.55264    -21.410759
   3.58350    -21.492582
   3.61435    -21.568839
   3.64521    -21.639500
   3.67607    -21.704550
   3.70693    -21.763967
   3.73778    -21.817757
   3.76864    -21.865917
   3.79950    -21.908424
   3.83035    -21.945250
   3.86121    -21.976454
   3.89207    -22.001978
   3.92293    -22.021833
   3.95378    -22.036024
   3.98464    -22.044524
   4.01550    -22.047355
 
# Band-Index    2
   4.01550     -8.854732
   3.98464     -8.851253
   3.95378     -8.840816
   3.92293     -8.823410
   3.89207     -8.799051
   3.86121     -8.767743
   3.83035     -8.729491
   3.79950     -8.684322
   3.76864     -8.632225
   3.73778     -8.573217
   3.70693     -8.507319
   3.67607     -8.434545
   3.64521     -8.354923
   3.61435     -8.268472
   3.58350     -8.175219
   3.55264     -8.075196
   3.52178     -7.968429
   3.49092     -7.854949
   3.46007     -7.734808
   3.42921     -7.608046
   3.39835     -7.474714
   3.36750     -7.583640
   3.33664     -7.831900
   3.30578     -8.080247
   3.27492     -8.328167
   3.24407     -8.575226
   3.21321     -8.821028
   3.18235     -9.065192
   3.15149     -9.307454
   3.12064     -9.547470
   3.08978     -9.785054
   3.05892    -10.019908
   3.02807    -10.251886
   2.99721    -10.480756
   2.96635    -10.706402
   2.93549    -10.928574
   2.90464    -11.147270
   2.87378    -11.362239
   2.84292    -11.573482
   2.81206    -11.780829
   2.78121    -11.984228
   2.75035    -12.183577
   2.71949    -12.378798
   2.68864    -12.569771
   2.65778    -12.756510
   2.62692    -12.938903
   2.59606    -13.116959
   2.56521    -13.290540
   2.53435    -13.459705
   2.50349    -13.624360
   2.47264    -13.784465
   2.44178    -13.939998
   2.41092    -14.090903
   2.38006    -14.237170
   2.34921    -14.378748
   2.31835    -14.515634
   2.31835    -14.515634
   2.28692    -14.394628
   2.25549    -14.307864
   2.22406    -14.255929
   2.19263    -14.235780
   2.16121    -14.241898
   2.12978    -14.268029
   2.09835    -14.308452
   2.06692    -14.358483
   2.03549    -14.414530
   2.00406    -14.473885
   1.97263    -14.534589
   1.94120    -14.595173
   1.90978    -14.654518
   1.87835    -14.711810
   1.84692    -14.766378
   1.81549    -14.817748
   1.78406    -14.865549
   1.75263    -14.909456
   1.72120    -14.949254
   1.68978    -14.984721
   1.65835    -15.015711
   1.62692    -15.042118
   1.59549    -15.063839
   1.56406    -15.080804
   1.53263    -15.092961
   1.50120    -15.100282
   1.46977    -15.102718
   1.46977    -15.102718
   1.43850    -15.050644
   1.40723    -14.912546
   1.37596    -14.720263
   1.34469    -14.496243
   1.31342    -14.252626
   1.28214    -13.995882
   1.25087    -13.729591
   1.21960    -13.455905
   1.18833    -13.176166
   1.15706    -12.891304
   1.12578    -12.602022
   1.09451    -12.309002
   1.06324    -12.012510
   1.03197    -11.712991
   1.00070    -11.410952
   0.96943    -11.106634
   0.93815    -10.800506
   0.90688    -10.493002
   0.87561    -10.184406
   0.84434     -9.875207
   0.81307     -9.565867
   0.78179     -9.256886
   0.75052     -8.948715
   0.71925     -8.641943
   0.68798     -8.337174
   0.65671     -8.035060
   0.62544     -7.736253
   0.59416     -7.575316
   0.56289     -7.705236
   0.53162     -7.828429
   0.50035     -7.944824
   0.46908     -8.054371
   0.43781     -8.157024
   0.40653     -8.252744
   0.37526     -8.341489
   0.34399     -8.423227
   0.31272     -8.497947
   0.28145     -8.565616
   0.25017     -8.626213
   0.21890     -8.679714
   0.18763     -8.726111
   0.15636     -8.765385
   0.12509     -8.797539
   0.09382     -8.822564
   0.06254     -8.840437
   0.03127     -8.851162
   0.00000     -8.854732
 
# Band-Index    3
   0.00000     -4.012527
   0.03127     -4.024578
   0.06254     -4.060613
   0.09382     -4.120259
   0.12509     -4.202919
   0.15636     -4.307793
   0.18763     -4.433911
   0.21890     -4.580137
   0.25017     -4.745274
   0.28145     -4.928027
   0.31272     -5.127070
   0.34399     -5.341057
   0.37526     -5.568673
   0.40653     -5.808622
   0.43781     -6.059655
   0.46908     -6.320583
   0.50035     -6.590263
   0.53162     -6.867627
   0.56289     -7.151698
   0.59416     -7.441528
   0.62544     -7.438741
   0.65671     -7.295590
   0.68798     -7.145955
   0.71925     -6.989952
   0.75052     -6.827712
   0.78179     -6.659389
   0.81307     -6.485163
   0.84434     -6.561427
   0.87561     -6.663463
   0.90688     -6.761469
   0.93815     -6.855213
   0.96943     -6.944504
   1.00070     -7.029166
   1.03197     -7.109029
   1.06324     -7.183946
   1.09451     -7.253797
   1.12578     -7.318433
   1.15706     -7.377785
   1.18833     -7.431741
   1.21960     -7.480223
   1.25087     -7.523152
   1.28214     -7.560490
   1.31342     -7.592171
   1.34469     -7.618147
   1.37596     -7.638373
   1.40723     -7.652847
   1.43850     -7.661529
   1.46977     -7.664443
   1.46977     -7.664443
   1.50120     -7.677608
   1.53263     -7.716937
   1.56406     -7.781795
   1.59549     -7.871208
   1.62692     -7.983877
   1.65835     -8.118205
   1.68978     -8.272477
   1.72120     -8.444778
   1.75263     -8.633159
   1.78406     -8.835587
   1.81549     -9.050104
   1.84692     -9.274723
   1.87835     -9.507463
   1.90978     -9.746329
   1.94120     -9.989396
   1.97263    -10.234549
   2.00406    -10.479523
   2.03549    -10.721911
   2.06692    -10.958730
   2.09835    -11.186510
   2.12978    -11.400958
   2.16121    -11.596765
   2.19263    -11.767614
   2.22406    -11.906722
   2.25549    -12.008138
   2.28692    -12.068424
   2.31835    -12.087856
   2.31835    -12.087856
   2.34921    -12.070693
   2.38006    -12.022853
   2.41092    -11.949766
   2.44178    -11.856266
   2.47264    -11.746206
   2.50349    -11.622635
   2.53435    -11.487816
   2.56521    -11.343467
   2.59606    -11.190950
   2.62692    -11.031270
   2.65778    -10.865283
   2.68864    -10.693649
   2.71949    -10.516988
   2.75035    -10.335738
   2.78121    -10.150363
   2.81206     -9.961280
   2.84292     -9.768877
   2.87378     -9.573477
   2.90464     -9.375445
   2.93549     -9.175104
   2.96635     -8.972838
   2.99721     -8.768939
   3.02807     -8.563786
   3.05892     -8.357739
   3.08978     -8.151171
   3.12064     -7.944458
   3.15149     -7.738005
   3.18235     -7.532211
   3.21321     -7.327515
   3.24407     -7.124354
   3.27492     -6.923182
   3.30578     -7.035843
   3.33664     -7.188546
   3.36750     -7.334860
   3.39835     -7.335953
   3.42921     -7.089475
   3.46007     -6.844879
   3.49092     -6.602913
   3.52178     -6.364413
   3.55264     -6.130275
   3.58350     -5.901521
   3.61435     -5.679261
   3.64521     -5.464696
   3.67607     -5.259128
   3.70693     -5.063965
   3.73778     -4.880663
   3.76864     -4.710785
   3.79950     -4.555903
   3.83035     -4.417602
   3.86121     -4.297423
   3.89207     -4.196814
   3.92293     -4.117069
   3.95378     -4.059276
   3.98464     -4.024257
   4.01550     -4.012527
 
# Band-Index    4
   4.01550     -4.012525
   3.98464     -4.018647
   3.95378     -4.036982
   3.92293     -4.067452
   3.89207     -4.109925
   3.86121     -4.164217
   3.83035     -4.230098
   3.79950     -4.307289
   3.76864     -4.395465
   3.73778     -4.494261
   3.70693     -4.603281
   3.67607     -4.722070
   3.64521     -4.850181
   3.61435     -4.987116
   3.58350     -5.132362
   3.55264     -5.285392
   3.52178     -5.445665
   3.49092     -5.612633
   3.46007     -5.785737
   3.42921     -5.964453
   3.39835     -6.148220
   3.36750     -6.336501
   3.33664     -6.528761
   3.30578     -6.724492
   3.27492     -6.876814
   3.24407     -6.711549
   3.21321     -6.540132
   3.18235     -6.362663
   3.15149     -6.179251
   3.12064     -5.990019
   3.08978     -5.795103
   3.05892     -5.594651
   3.02807     -5.388835
   2.99721     -5.177838
   2.96635     -4.961866
   2.93549     -4.741147
   2.90464     -4.515936
   2.87378     -4.286514
   2.84292     -4.053196
   2.81206     -3.816330
   2.78121     -3.576299
   2.75035     -3.333529
   2.71949     -3.088488
   2.68864     -2.841691
   2.65778     -2.593704
   2.62692     -2.345145
   2.59606     -2.096676
   2.56521     -1.849029
   2.53435     -1.602980
   2.50349     -1.359357
   2.47264     -1.119038
   2.44178     -0.882940
   2.41092     -0.652004
   2.38006     -0.427196
   2.34921     -0.209477
   2.31835     -0.000001
   2.31835     -0.000001
   2.28692     -0.205626
   2.25549     -0.404684
   2.22406     -0.596796
   2.19263     -0.781807
   2.16121     -0.959575
   2.12978     -1.129969
   2.09835     -1.292872
   2.06692     -1.448180
   2.03549     -1.595801
   2.00406     -1.735657
   1.97263     -1.867680
   1.94120     -1.991819
   1.90978     -2.108027
   1.87835     -2.216271
   1.84692     -2.316527
   1.81549     -2.408773
   1.78406     -2.492998
   1.75263     -2.569196
   1.72120     -2.637363
   1.68978     -2.697499
   1.65835     -2.749605
   1.62692     -2.793686
   1.59549     -2.829746
   1.56406     -2.857785
   1.53263     -2.877811
   1.50120     -2.889825
   1.46977     -2.893830
   1.46977     -2.893830
   1.43850     -2.913441
   1.40723     -2.971090
   1.37596     -3.063508
   1.34469     -3.186054
   1.31342     -3.333521
   1.28214     -3.500803
   1.25087     -3.683224
   1.21960     -3.876842
   1.18833     -4.078317
   1.15706     -4.284934
   1.12578     -4.494486
   1.09451     -4.705192
   1.06324     -4.915615
   1.03197     -5.124588
   1.00070     -5.331164
   0.96943     -5.534562
   0.93815     -5.734154
   0.90688     -5.929410
   0.87561     -6.119894
   0.84434     -6.305245
   0.81307     -6.455608
   0.78179     -6.346269
   0.75052     -6.233720
   0.71925     -6.118288
   0.68798     -6.000337
   0.65671     -5.880262
   0.62544     -5.758502
   0.59416     -5.635537
   0.56289     -5.511892
   0.53162     -5.388133
   0.50035     -5.264882
   0.46908     -5.142807
   0.43781     -5.022625
   0.40653     -4.905110
   0.37526     -4.791074
   0.34399     -4.681377
   0.31272     -4.576914
   0.28145     -4.478600
   0.25017     -4.387371
   0.21890     -4.304152
   0.18763     -4.229848
   0.15636     -4.165298
   0.12509     -4.111299
   0.09382     -4.068534
   0.06254     -4.037564
   0.03127     -4.018808
   0.00000     -4.012525
 
# Band-Index    5
   0.00000      3.469641
   0.03127      3.473306
   0.06254      3.484301
   0.09382      3.502626
   0.12509      3.528283
   0.15636      3.561271
   0.18763      3.601592
   0.21890      3.649247
   0.25017      3.704237
   0.28145      3.766561
   0.31272      3.836219
   0.34399      3.913211
   0.37526      3.997534
   0.40653      4.089188
   0.43781      4.188169
   0.46908      4.294475
   0.50035      4.408102
   0.53162      4.529046
   0.56289      4.657303
   0.59416      4.792866
   0.62544      4.935729
   0.65671      5.085890
   0.68798      5.243329
   0.71925      5.408041
   0.75052      5.580012
   0.78179      5.759226
   0.81307      5.945675
   0.84434      6.139333
   0.87561      6.340170
   0.90688      6.458185
   0.93815      6.137529
   0.96943      5.811899
   1.00070      5.485652
   1.03197      5.161193
   1.06324      4.840222
   1.09451      4.524358
   1.12578      4.215285
   1.15706      3.914795
   1.18833      3.625033
   1.21960      3.348467
   1.25087      3.088074
   1.28214      2.847384
   1.31342      2.630514
   1.34469      2.442283
   1.37596      2.287917
   1.40723      2.172706
   1.43850      2.101355
   1.46977      2.077174
   1.46977      2.077174
   1.50120      2.076174
   1.53263      2.073136
   1.56406      2.067941
   1.59549      2.060398
   1.62692      2.050238
   1.65835      2.037105
   1.68978      2.020569
   1.72120      2.000137
   1.75263      1.975219
   1.78406      1.945175
   1.81549      1.909297
   1.84692      1.866830
   1.87835      1.816977
   1.90978      1.758917
   1.94120      1.691829
   1.97263      1.614930
   2.00406      1.527477
   2.03549      1.428808
   2.06692      1.318385
   2.09835      1.195799
   2.12978      1.060819
   2.16121      0.913375
   2.19263      0.753595
   2.22406      0.581785
   2.25549      0.398437
   2.28692      0.204183
   2.31835      0.000001
   2.31835      0.000001
   2.34921      0.208317
   2.38006      0.423038
   2.41092      0.643777
   2.44178      0.870349
   2.47264      1.102567
   2.50349      1.340240
   2.53435      1.583178
   2.56521      1.831198
   2.59606      2.084085
   2.62692      2.341658
   2.65778      2.603721
   2.68864      2.870078
   2.71949      3.140537
   2.75035      3.414920
   2.78121      3.692987
   2.81206      3.974552
   2.84292      4.259400
   2.87378      4.547302
   2.90464      4.838030
   2.93549      5.131356
   2.96635      5.427008
   2.99721      5.724711
   3.02807      6.024176
   3.05892      6.325039
   3.08978      6.627019
   3.12064      6.469709
   3.15149      6.266822
   3.18235      6.070953
   3.21321      5.882122
   3.24407      5.700344
   3.27492      5.525634
   3.30578      5.358005
   3.33664      5.197467
   3.36750      5.044030
   3.39835      4.897701
   3.42921      4.758489
   3.46007      4.626399
   3.49092      4.501435
   3.52178      4.383607
   3.55264      4.272915
   3.58350      4.169363
   3.61435      4.072953
   3.64521      3.983686
   3.67607      3.901563
   3.70693      3.826586
   3.73778      3.758753
   3.76864      3.698064
   3.79950      3.644520
   3.83035      3.598118
   3.86121      3.558858
   3.89207      3.526738
   3.92293      3.501757
   3.95378      3.483915
   3.98464      3.473209
   4.01550      3.469641
 
# Band-Index    6
   4.01550      4.599691
   3.98464      4.603255
   3.95378      4.613944
   3.92293      4.631761
   3.89207      4.656700
   3.86121      4.688761
   3.83035      4.727942
   3.79950      4.774235
   3.76864      4.827638
   3.73778      4.888146
   3.70693      4.955752
   3.67607      5.030448
   3.64521      5.112225
   3.61435      5.201075
   3.58350      5.296984
   3.55264      5.399939
   3.52178      5.509927
   3.49092      5.626931
   3.46007      5.750929
   3.42921      5.881900
   3.39835      6.019817
   3.36750      6.164651
   3.33664      6.316368
   3.30578      6.474925
   3.27492      6.640278
   3.24407      6.812369
   3.21321      6.991132
   3.18235      7.176490
   3.15149      7.232750
   3.12064      6.929723
   3.08978      6.679594
   3.05892      6.896452
   3.02807      7.120256
   2.99721      7.350974
   2.96635      7.588569
   2.93549      7.832995
   2.90464      8.084201
   2.87378      8.342126
   2.84292      8.606695
   2.81206      8.877819
   2.78121      9.155385
   2.75035      9.439263
   2.71949      9.729282
   2.68864     10.025233
   2.65778     10.326834
   2.62692     10.633729
   2.59606     10.945432
   2.56521     11.233423
   2.53435     11.254096
   2.50349     11.248198
   2.47264     11.226575
   2.44178     11.198077
   2.41092     11.169318
   2.38006     11.145077
   2.34921     11.128795
   2.31835     11.122945
   2.31835     11.122945
   2.28692     11.129515
   2.25549     11.149946
   2.22406     11.184925
   2.19263     11.234634
   2.16121     11.298742
   2.12978     11.376391
   2.09835     11.466168
   2.06692     11.566079
   2.03549     11.673514
   2.00406     11.785301
   1.97263     11.740777
   1.94120     11.384129
   1.90978     11.032267
   1.87835     10.688632
   1.84692     10.356338
   1.81549     10.038331
   1.78406      9.737016
   1.75263      9.454848
   1.72120      9.194283
   1.68978      8.957624
   1.65835      8.747113
   1.62692      8.564827
   1.59549      8.412726
   1.56406      8.292504
   1.53263      8.205561
   1.50120      8.152957
   1.46977      8.135346
   1.46977      8.135346
   1.43850      8.136814
   1.40723      8.141187
   1.37596      8.148447
   1.34469      8.158525
   1.31342      8.171346
   1.28214      8.186751
   1.25087      8.204463
   1.21960      8.223816
   1.18833      8.242907
   1.15706      8.251664
   1.12578      8.162399
   1.09451      7.934820
   1.06324      7.690755
   1.03197      7.449592
   1.00070      7.214165
   0.96943      6.985266
   0.93815      6.763209
   0.90688      6.548147
   0.87561      6.760797
   0.84434      6.983229
   0.81307      6.976576
   0.78179      6.839170
   0.75052      6.678380
   0.71925      6.515833
   0.68798      6.356837
   0.65671      6.203236
   0.62544      6.055846
   0.59416      5.915042
   0.56289      5.781065
   0.53162      5.654064
   0.50035      5.534126
   0.46908      5.421313
   0.43781      5.315671
   0.40653      5.217232
   0.37526      5.126022
   0.34399      5.042059
   0.31272      4.965359
   0.28145      4.895935
   0.25017      4.833797
   0.21890      4.778952
   0.18763      4.731408
   0.15636      4.691171
   0.12509      4.658243
   0.09382      4.632627
   0.06254      4.614330
   0.03127      4.603351
   0.00000      4.599691
 
# Band-Index    7
   0.00000      5.407479
   0.03127      5.411143
   0.06254      5.422134
   0.09382      5.440454
   0.12509      5.466104
   0.15636      5.499084
   0.18763      5.539397
   0.21890      5.587043
   0.25017      5.642024
   0.28145      5.704340
   0.31272      5.773991
   0.34399      5.850975
   0.37526      5.935292
   0.40653      6.026937
   0.43781      6.125907
   0.46908      6.232196
   0.50035      6.345798
   0.53162      6.466702
   0.56289      6.594898
   0.59416      6.730368
   0.62544      6.873091
   0.65671      7.023148
   0.68798      7.180371
   0.71925      7.344835
   0.75052      7.516683
   0.78179      7.696699
   0.81307      7.607084
   0.84434      7.461088
   0.87561      7.549881
   0.90688      7.725405
   0.93815      7.926352
   0.96943      8.140573
   1.00070      8.364587
   1.03197      8.421463
   1.06324      8.389783
   1.09451      8.363621
   1.12578      8.362881
   1.15706      8.509626
   1.18833      8.763754
   1.21960      9.037670
   1.25087      9.321344
   1.28214      9.612876
   1.31342      9.911608
   1.34469     10.217173
   1.37596     10.529259
   1.40723     10.847387
   1.43850     11.169835
   1.46977     11.444374
   1.46977     11.444374
   1.50120     11.447761
   1.53263     11.457910
   1.56406     11.474816
   1.59549     11.498461
   1.62692     11.528819
   1.65835     11.565862
   1.68978     11.609546
   1.72120     11.659821
   1.75263     11.716621
   1.78406     11.779873
   1.81549     11.849481
   1.84692     11.925342
   1.87835     12.007320
   1.90978     12.095253
   1.94120     12.006966
   1.97263     11.897768
   2.00406     12.097436
   2.03549     12.445794
   2.06692     12.615805
   2.09835     12.733569
   2.12978     12.854613
   2.16121     12.978121
   2.19263     13.103101
   2.22406     13.228309
   2.25549     13.352216
   2.28692     13.472975
   2.31835     13.588392
   2.31835     13.588392
   2.34921     13.411440
   2.38006     13.151268
   2.41092     12.855205
   2.44178     12.542815
   2.47264     12.223908
   2.50349     11.902338
   2.53435     11.580830
   2.56521     11.261335
   2.59606     11.175350
   2.62692     11.073127
   2.65778     10.927487
   2.68864     10.745821
   2.71949     10.538059
   2.75035     10.313252
   2.78121     10.078313
   2.81206      9.838149
   2.84292      9.596147
   2.87378      9.354644
   2.90464      9.115268
   2.93549      8.879186
   2.96635      8.647233
   2.99721      8.420029
   3.02807      8.198046
   3.05892      7.981636
   3.08978      7.771078
   3.12064      7.566591
   3.15149      7.368348
   3.18235      7.535653
   3.21321      7.821890
   3.24407      7.639812
   3.27492      7.464834
   3.30578      7.296966
   3.33664      7.136220
   3.36750      6.982605
   3.39835      6.836128
   3.42921      6.696781
   3.46007      6.564584
   3.49092      6.439497
   3.52178      6.321591
   3.55264      6.210838
   3.58350      6.107239
   3.61435      6.010794
   3.64521      5.921502
   3.67607      5.839365
   3.70693      5.764379
   3.73778      5.696545
   3.76864      5.635859
   3.79950      5.582320
   3.83035      5.535925
   3.86121      5.496672
   3.89207      5.464560
   3.92293      5.439586
   3.95378      5.421748
   3.98464      5.411047
   4.01550      5.407482
 
# Band-Index    8
   4.01550      9.841776
   3.98464      9.236136
   3.95378      9.239478
   3.92293      9.245213
   3.89207      9.253618
   3.86121      9.264897
   3.83035      9.279412
   3.79950      9.297477
   3.76864      9.319553
   3.73778      9.346016
   3.70693      9.377113
   3.67607      9.413221
   3.64521      9.454653
   3.61435      9.501659
   3.58350      9.554458
   3.55264      9.613235
   3.52178      9.678200
   3.49092      9.749457
   3.46007     10.165401
   3.42921      9.889768
   3.39835      9.608195
   3.36750      9.321585
   3.33664      9.030705
   3.30578      8.736237
   3.27492      8.438895
   3.24407      8.139258
   3.21321      7.838006
   3.18235      8.011055
   3.15149      8.207296
   3.12064      8.410596
   3.08978      8.620936
   3.05892      8.838297
   3.02807      9.062653
   2.99721      9.293977
   2.96635      9.532238
   2.93549      9.777396
   2.90464     10.029406
   2.87378     10.288217
   2.84292     10.553765
   2.81206     10.826440
   2.78121     11.105614
   2.75035     11.391566
   2.71949     11.683823
   2.68864     11.983674
   2.65778     12.290217
   2.62692     12.608308
   2.59606     12.939157
   2.56521     13.304124
   2.53435     14.045664
   2.50349     14.027985
   2.47264     13.993252
   2.44178     13.941218
   2.41092     13.872889
   2.38006     13.789788
   2.34921     13.694139
   2.31835     13.588396
   2.31835     13.588396
   2.28692     13.624632
   2.25549     13.565545
   2.22406     13.474314
   2.19263     13.374635
   2.16121     13.298204
   2.12978     13.204785
   2.09835     13.037369
   2.06692     12.769820
   2.03549     12.501983
   2.00406     12.392628
   1.97263     12.288169
   1.94120     12.188947
   1.90978     12.108987
   1.87835     12.200358
   1.84692     12.068413
   1.81549     11.989656
   1.78406     11.917476
   1.75263     11.851960
   1.72120     11.793170
   1.68978     11.741178
   1.65835     11.696027
   1.62692     11.657760
   1.59549     11.626407
   1.56406     11.601996
   1.53263     11.584544
   1.50120     11.574066
   1.46977     11.570573
   1.46977     11.570573
   1.43850     11.851228
   1.40723     11.930369
   1.37596     11.619348
   1.34469     11.312976
   1.31342     11.012144
   1.28214     10.717275
   1.25087     10.428644
   1.21960     10.146439
   1.18833      9.870839
   1.15706      9.601973
   1.12578      9.340002
   1.09451      9.085064
   1.06324      8.837338
   1.03197      8.597059
   1.00070      8.454951
   0.96943      8.487569
   0.93815      8.514610
   0.90688      8.518848
   0.87561      8.457276
   0.84434      8.179120
   0.81307      7.888974
   0.78179      7.888688
   0.75052      8.197662
   0.71925      8.511350
   0.68798      8.823296
   0.65671      9.129844
   0.62544      9.017075
   0.59416      9.058209
   0.56289      9.096827
   0.53162      9.132525
   0.50035      9.164788
   0.46908      9.193221
   0.43781      9.217520
   0.40653      9.237379
   0.37526      9.252810
   0.34399      9.263758
   0.31272      9.270395
   0.28145      9.273091
   0.25017      9.272428
   0.21890      9.269082
   0.18763      9.263759
   0.15636      9.257369
   0.12509      9.250612
   0.09382      9.244339
   0.06254      9.239371
   0.03127      9.236129
   0.00000      9.235074
